[
  {
    "resourceType": "Bundle",
    "type": "collection",
    "entry": [
      {
        "resource": {
          "resourceType": "Patient",
          "id": "M000001",
          "identifier": [
            {
              "system": "urn:mrn",
              "value": "M000001"
            }
          ],
          "name": [
            {
              "family": "Kim",
              "given": [
                "Ben"
              ]
            }
          ],
          "gender": "male",
          "birthDate": "1980-06-15"
        }
      },
      {
        "resource": {
          "resourceType": "Observation",
          "id": "obs-M000001-bp",
          "status": "final",
          "category": [
            {
              "coding": [
                {
                  "system": "http://terminology.hl7.org/CodeSystem/observation-category",
                  "code": "vital-signs"
                }
              ]
            }
          ],
          "code": {
            "text": "Blood pressure"
          },
          "subject": {
            "reference": "Patient/M000001"
          },
          "effectiveDateTime": "2025-09-22",
          "component": [
            {
              "code": {
                "text": "Systolic"
              },
              "valueQuantity": {
                "value": 130,
                "unit": "mmHg"
              }
            },
            {
              "code": {
                "text": "Diastolic"
              },
              "valueQuantity": {
                "value": 85,
                "unit": "mmHg"
              }
            }
          ]
        }
      },
      {
        "resource": {
          "resourceType": "Observation",
          "id": "obs-M000001-lipid",
          "status": "final",
          "code": {
            "text": "Lipid panel"
          },
          "subject": {
            "reference": "Patient/M000001"
          },
          "effectiveDateTime": "2025-09-22",
          "component": [
            {
              "code": {
                "text": "Total Cholesterol"
              },
              "valueQuantity": {
                "value": 200,
                "unit": "mg/dL"
              }
            },
            {
              "code": {
                "text": "HDL"
              },
              "valueQuantity": {
                "value": 50,
                "unit": "mg/dL"
              }
            },
            {
              "code": {
                "text": "LDL"
              },
              "valueQuantity": {
                "value": 130,
                "unit": "mg/dL"
              }
            }
          ]
        }
      },
      {
        "resource": {
          "resourceType": "Observation",
          "id": "obs-M000001-bmi",
          "status": "final",
          "code": {
            "text": "Body mass index"
          },
          "subject": {
            "reference": "Patient/M000001"
          },
          "effectiveDateTime": "2025-09-22",
          "valueQuantity": {
            "value": 27.8,
            "unit": "kg/m2"
          }
        }
      },
      {
        "resource": {
          "resourceType": "Condition",
          "id": "cond-M000001-1",
          "subject": {
            "reference": "Patient/M000001"
          },
          "code": {
            "text": "Hypertension"
          },
          "onsetDateTime": "2023-09-23"
        }
      },
      {
        "resource": {
          "resourceType": "Condition",
          "id": "cond-M000001-2",
          "subject": {
            "reference": "Patient/M000001"
          },
          "code": {
            "text": "Overweight"
          },
          "onsetDateTime": "2023-09-23"
        }
      },
      {
        "resource": {
          "resourceType": "Procedure",
          "id": "proc-M000001-1",
          "subject": {
            "reference": "Patient/M000001"
          },
          "code": {
            "text": "appendectomy"
          },
          "performedDateTime": "2024-09-22"
        }
      },
      {
        "resource": {
          "resourceType": "MedicationRequest",
          "id": "medreq-M000001-1",
          "status": "active",
          "intent": "order",
          "medicationCodeableConcept": {
            "text": "Lisinopril"
          },
          "subject": {
            "reference": "Patient/M000001"
          },
          "authoredOn": "2025-08-23",
          "dosageInstruction": [
            {
              "text": "10 mg PO daily. Take in the morning; check BP 3x/week"
            }
          ],
          "note": [
            {
              "text": "Mock data for pipeline test"
            }
          ]
        }
      },
      {
        "resource": {
          "resourceType": "MedicationRequest",
          "id": "medreq-M000001-2",
          "status": "active",
          "intent": "order",
          "medicationCodeableConcept": {
            "text": "Metformin"
          },
          "subject": {
            "reference": "Patient/M000001"
          },
          "authoredOn": "2025-08-23",
          "dosageInstruction": [
            {
              "text": "500 mg PO BID with meals. Stop if GI intolerance persists"
            }
          ],
          "note": [
            {
              "text": "Mock data for pipeline test"
            }
          ]
        }
      }
    ]
  },
  {
    "resourceType": "Bundle",
    "type": "collection",
    "entry": [
      {
        "resource": {
          "resourceType": "Patient",
          "id": "M000002",
          "identifier": [
            {
              "system": "urn:mrn",
              "value": "M000002"
            }
          ],
          "name": [
            {
              "family": "Martinez",
              "given": [
                "Carmen"
              ]
            }
          ],
          "gender": "female",
          "birthDate": "1963-06-15"
        }
      },
      {
        "resource": {
          "resourceType": "Observation",
          "id": "obs-M000002-bp",
          "status": "final",
          "category": [
            {
              "coding": [
                {
                  "system": "http://terminology.hl7.org/CodeSystem/observation-category",
                  "code": "vital-signs"
                }
              ]
            }
          ],
          "code": {
            "text": "Blood pressure"
          },
          "subject": {
            "reference": "Patient/M000002"
          },
          "effectiveDateTime": "2025-09-22",
          "component": [
            {
              "code": {
                "text": "Systolic"
              },
              "valueQuantity": {
                "value": 145,
                "unit": "mmHg"
              }
            },
            {
              "code": {
                "text": "Diastolic"
              },
              "valueQuantity": {
                "value": 92,
                "unit": "mmHg"
              }
            }
          ]
        }
      },
      {
        "resource": {
          "resourceType": "Observation",
          "id": "obs-M000002-lipid",
          "status": "final",
          "code": {
            "text": "Lipid panel"
          },
          "subject": {
            "reference": "Patient/M000002"
          },
          "effectiveDateTime": "2025-09-22",
          "component": [
            {
              "code": {
                "text": "Total Cholesterol"
              },
              "valueQuantity": {
                "value": 240,
                "unit": "mg/dL"
              }
            },
            {
              "code": {
                "text": "HDL"
              },
              "valueQuantity": {
                "value": 40,
                "unit": "mg/dL"
              }
            },
            {
              "code": {
                "text": "LDL"
              },
              "valueQuantity": {
                "value": 170,
                "unit": "mg/dL"
              }
            }
          ]
        }
      },
      {
        "resource": {
          "resourceType": "Observation",
          "id": "obs-M000002-bmi",
          "status": "final",
          "code": {
            "text": "Body mass index"
          },
          "subject": {
            "reference": "Patient/M000002"
          },
          "effectiveDateTime": "2025-09-22",
          "valueQuantity": {
            "value": 26.4,
            "unit": "kg/m2"
          }
        }
      },
      {
        "resource": {
          "resourceType": "Condition",
          "id": "cond-M000002-1",
          "subject": {
            "reference": "Patient/M000002"
          },
          "code": {
            "text": "Hypertension"
          },
          "onsetDateTime": "2023-09-23"
        }
      },
      {
        "resource": {
          "resourceType": "Condition",
          "id": "cond-M000002-2",
          "subject": {
            "reference": "Patient/M000002"
          },
          "code": {
            "text": "Overweight"
          },
          "onsetDateTime": "2023-09-23"
        }
      },
      {
        "resource": {
          "resourceType": "Condition",
          "id": "cond-M000002-3",
          "subject": {
            "reference": "Patient/M000002"
          },
          "code": {
            "text": "Hyperlipidemia"
          },
          "onsetDateTime": "2023-09-23"
        }
      },
      {
        "resource": {
          "resourceType": "Condition",
          "id": "cond-M000002-4",
          "subject": {
            "reference": "Patient/M000002"
          },
          "code": {
            "text": "Type 2 Diabetes Mellitus"
          },
          "onsetDateTime": "2023-09-23"
        }
      },
      {
        "resource": {
          "resourceType": "Condition",
          "id": "cond-M000002-5",
          "subject": {
            "reference": "Patient/M000002"
          },
          "code": {
            "text": "Coronary Artery Disease"
          },
          "onsetDateTime": "2023-09-23"
        }
      },
      {
        "resource": {
          "resourceType": "AllergyIntolerance",
          "id": "alg-M000002-1",
          "patient": {
            "reference": "Patient/M000002"
          },
          "code": {
            "text": "Penicillin"
          },
          "reaction": [
            {
              "description": "Rash",
              "severity": "mild"
            }
          ]
        }
      },
      {
        "resource": {
          "resourceType": "Procedure",
          "id": "proc-M000002-1",
          "subject": {
            "reference": "Patient/M000002"
          },
          "code": {
            "text": "coronary artery bypass graft"
          },
          "performedDateTime": "2024-09-22"
        }
      },
      {
        "resource": {
          "resourceType": "MedicationRequest",
          "id": "medreq-M000002-1",
          "status": "active",
          "intent": "order",
          "medicationCodeableConcept": {
            "text": "Simvastatin"
          },
          "subject": {
            "reference": "Patient/M000002"
          },
          "authoredOn": "2025-08-23",
          "dosageInstruction": [
            {
              "text": "20 mg PO HS. Lipid panel in 4\u20136 weeks"
            }
          ],
          "note": [
            {
              "text": "Mock data for pipeline test"
            }
          ]
        }
      },
      {
        "resource": {
          "resourceType": "MedicationRequest",
          "id": "medreq-M000002-2",
          "status": "active",
          "intent": "order",
          "medicationCodeableConcept": {
            "text": "Metoprolol"
          },
          "subject": {
            "reference": "Patient/M000002"
          },
          "authoredOn": "2025-08-23",
          "dosageInstruction": [
            {
              "text": "50 mg PO BID. Hold if HR < 55 bpm"
            }
          ],
          "note": [
            {
              "text": "Mock data for pipeline test"
            }
          ]
        }
      },
      {
        "resource": {
          "resourceType": "MedicationRequest",
          "id": "medreq-M000002-3",
          "status": "active",
          "intent": "order",
          "medicationCodeableConcept": {
            "text": "Insulin glargine"
          },
          "subject": {
            "reference": "Patient/M000002"
          },
          "authoredOn": "2025-08-23",
          "dosageInstruction": [
            {
              "text": "10 units SC HS. Titrate per fasting glucose"
            }
          ],
          "note": [
            {
              "text": "Mock data for pipeline test"
            }
          ]
        }
      }
    ]
  },
  {
    "resourceType": "Bundle",
    "type": "collection",
    "entry": [
      {
        "resource": {
          "resourceType": "Patient",
          "id": "M000003",
          "identifier": [
            {
              "system": "urn:mrn",
              "value": "M000003"
            }
          ],
          "name": [
            {
              "family": "Lee",
              "given": [
                "Diana"
              ]
            }
          ],
          "gender": "female",
          "birthDate": "1987-06-15"
        }
      },
      {
        "resource": {
          "resourceType": "Observation",
          "id": "obs-M000003-bp",
          "status": "final",
          "category": [
            {
              "coding": [
                {
                  "system": "http://terminology.hl7.org/CodeSystem/observation-category",
                  "code": "vital-signs"
                }
              ]
            }
          ],
          "code": {
            "text": "Blood pressure"
          },
          "subject": {
            "reference": "Patient/M000003"
          },
          "effectiveDateTime": "2025-09-22",
          "component": [
            {
              "code": {
                "text": "Systolic"
              },
              "valueQuantity": {
                "value": 118,
                "unit": "mmHg"
              }
            },
            {
              "code": {
                "text": "Diastolic"
              },
              "valueQuantity": {
                "value": 78,
                "unit": "mmHg"
              }
            }
          ]
        }
      },
      {
        "resource": {
          "resourceType": "Observation",
          "id": "obs-M000003-lipid",
          "status": "final",
          "code": {
            "text": "Lipid panel"
          },
          "subject": {
            "reference": "Patient/M000003"
          },
          "effectiveDateTime": "2025-09-22",
          "component": [
            {
              "code": {
                "text": "Total Cholesterol"
              },
              "valueQuantity": {
                "value": 160,
                "unit": "mg/dL"
              }
            },
            {
              "code": {
                "text": "HDL"
              },
              "valueQuantity": {
                "value": 60,
                "unit": "mg/dL"
              }
            },
            {
              "code": {
                "text": "LDL"
              },
              "valueQuantity": {
                "value": 85,
                "unit": "mg/dL"
              }
            }
          ]
        }
      },
      {
        "resource": {
          "resourceType": "Observation",
          "id": "obs-M000003-bmi",
          "status": "final",
          "code": {
            "text": "Body mass index"
          },
          "subject": {
            "reference": "Patient/M000003"
          },
          "effectiveDateTime": "2025-09-22",
          "valueQuantity": {
            "value": 22.5,
            "unit": "kg/m2"
          }
        }
      }
    ]
  },
  {
    "resourceType": "Bundle",
    "type": "collection",
    "entry": [
      {
        "resource": {
          "resourceType": "Patient",
          "id": "M000004",
          "identifier": [
            {
              "system": "urn:mrn",
              "value": "M000004"
            }
          ],
          "name": [
            {
              "family": "Lopez",
              "given": [
                "Ethan"
              ]
            }
          ],
          "gender": "male",
          "birthDate": "1970-06-15"
        }
      },
      {
        "resource": {
          "resourceType": "Observation",
          "id": "obs-M000004-bp",
          "status": "final",
          "category": [
            {
              "coding": [
                {
                  "system": "http://terminology.hl7.org/CodeSystem/observation-category",
                  "code": "vital-signs"
                }
              ]
            }
          ],
          "code": {
            "text": "Blood pressure"
          },
          "subject": {
            "reference": "Patient/M000004"
          },
          "effectiveDateTime": "2025-09-22",
          "component": [
            {
              "code": {
                "text": "Systolic"
              },
              "valueQuantity": {
                "value": 136,
                "unit": "mmHg"
              }
            },
            {
              "code": {
                "text": "Diastolic"
              },
              "valueQuantity": {
                "value": 88,
                "unit": "mmHg"
              }
            }
          ]
        }
      },
      {
        "resource": {
          "resourceType": "Observation",
          "id": "obs-M000004-lipid",
          "status": "final",
          "code": {
            "text": "Lipid panel"
          },
          "subject": {
            "reference": "Patient/M000004"
          },
          "effectiveDateTime": "2025-09-22",
          "component": [
            {
              "code": {
                "text": "Total Cholesterol"
              },
              "valueQuantity": {
                "value": 190,
                "unit": "mg/dL"
              }
            },
            {
              "code": {
                "text": "HDL"
              },
              "valueQuantity": {
                "value": 45,
                "unit": "mg/dL"
              }
            },
            {
              "code": {
                "text": "LDL"
              },
              "valueQuantity": {
                "value": 120,
                "unit": "mg/dL"
              }
            }
          ]
        }
      },
      {
        "resource": {
          "resourceType": "Observation",
          "id": "obs-M000004-bmi",
          "status": "final",
          "code": {
            "text": "Body mass index"
          },
          "subject": {
            "reference": "Patient/M000004"
          },
          "effectiveDateTime": "2025-09-22",
          "valueQuantity": {
            "value": 28.1,
            "unit": "kg/m2"
          }
        }
      },
      {
        "resource": {
          "resourceType": "Condition",
          "id": "cond-M000004-1",
          "subject": {
            "reference": "Patient/M000004"
          },
          "code": {
            "text": "Hypertension"
          },
          "onsetDateTime": "2023-09-23"
        }
      },
      {
        "resource": {
          "resourceType": "Condition",
          "id": "cond-M000004-2",
          "subject": {
            "reference": "Patient/M000004"
          },
          "code": {
            "text": "Overweight"
          },
          "onsetDateTime": "2023-09-23"
        }
      },
      {
        "resource": {
          "resourceType": "Condition",
          "id": "cond-M000004-3",
          "subject": {
            "reference": "Patient/M000004"
          },
          "code": {
            "text": "Type 2 Diabetes Mellitus"
          },
          "onsetDateTime": "2023-09-23"
        }
      },
      {
        "resource": {
          "resourceType": "MedicationRequest",
          "id": "medreq-M000004-1",
          "status": "active",
          "intent": "order",
          "medicationCodeableConcept": {
            "text": "Atorvastatin"
          },
          "subject": {
            "reference": "Patient/M000004"
          },
          "authoredOn": "2025-08-23",
          "dosageInstruction": [
            {
              "text": "20 mg PO daily. "
            }
          ],
          "note": [
            {
              "text": "Mock data for pipeline test"
            }
          ]
        }
      },
      {
        "resource": {
          "resourceType": "MedicationRequest",
          "id": "medreq-M000004-2",
          "status": "active",
          "intent": "order",
          "medicationCodeableConcept": {
            "text": "Glipizide"
          },
          "subject": {
            "reference": "Patient/M000004"
          },
          "authoredOn": "2025-08-23",
          "dosageInstruction": [
            {
              "text": "5 mg PO daily before breakfast. Monitor for hypoglycemia"
            }
          ],
          "note": [
            {
              "text": "Mock data for pipeline test"
            }
          ]
        }
      }
    ]
  },
  {
    "resourceType": "Bundle",
    "type": "collection",
    "entry": [
      {
        "resource": {
          "resourceType": "Patient",
          "id": "M000005",
          "identifier": [
            {
              "system": "urn:mrn",
              "value": "M000005"
            }
          ],
          "name": [
            {
              "family": "Singh",
              "given": [
                "Farhan"
              ]
            }
          ],
          "gender": "male",
          "birthDate": "1954-06-15"
        }
      },
      {
        "resource": {
          "resourceType": "Observation",
          "id": "obs-M000005-bp",
          "status": "final",
          "category": [
            {
              "coding": [
                {
                  "system": "http://terminology.hl7.org/CodeSystem/observation-category",
                  "code": "vital-signs"
                }
              ]
            }
          ],
          "code": {
            "text": "Blood pressure"
          },
          "subject": {
            "reference": "Patient/M000005"
          },
          "effectiveDateTime": "2025-09-22",
          "component": [
            {
              "code": {
                "text": "Systolic"
              },
              "valueQuantity": {
                "value": 150,
                "unit": "mmHg"
              }
            },
            {
              "code": {
                "text": "Diastolic"
              },
              "valueQuantity": {
                "value": 95,
                "unit": "mmHg"
              }
            }
          ]
        }
      },
      {
        "resource": {
          "resourceType": "Observation",
          "id": "obs-M000005-lipid",
          "status": "final",
          "code": {
            "text": "Lipid panel"
          },
          "subject": {
            "reference": "Patient/M000005"
          },
          "effectiveDateTime": "2025-09-22",
          "component": [
            {
              "code": {
                "text": "Total Cholesterol"
              },
              "valueQuantity": {
                "value": 220,
                "unit": "mg/dL"
              }
            },
            {
              "code": {
                "text": "HDL"
              },
              "valueQuantity": {
                "value": 35,
                "unit": "mg/dL"
              }
            },
            {
              "code": {
                "text": "LDL"
              },
              "valueQuantity": {
                "value": 160,
                "unit": "mg/dL"
              }
            }
          ]
        }
      },
      {
        "resource": {
          "resourceType": "Observation",
          "id": "obs-M000005-bmi",
          "status": "final",
          "code": {
            "text": "Body mass index"
          },
          "subject": {
            "reference": "Patient/M000005"
          },
          "effectiveDateTime": "2025-09-22",
          "valueQuantity": {
            "value": 30.0,
            "unit": "kg/m2"
          }
        }
      },
      {
        "resource": {
          "resourceType": "Condition",
          "id": "cond-M000005-1",
          "subject": {
            "reference": "Patient/M000005"
          },
          "code": {
            "text": "Hypertension"
          },
          "onsetDateTime": "2023-09-23"
        }
      },
      {
        "resource": {
          "resourceType": "Condition",
          "id": "cond-M000005-2",
          "subject": {
            "reference": "Patient/M000005"
          },
          "code": {
            "text": "Obesity"
          },
          "onsetDateTime": "2023-09-23"
        }
      },
      {
        "resource": {
          "resourceType": "Condition",
          "id": "cond-M000005-3",
          "subject": {
            "reference": "Patient/M000005"
          },
          "code": {
            "text": "Hyperlipidemia"
          },
          "onsetDateTime": "2023-09-23"
        }
      },
      {
        "resource": {
          "resourceType": "Condition",
          "id": "cond-M000005-4",
          "subject": {
            "reference": "Patient/M000005"
          },
          "code": {
            "text": "Coronary Artery Disease"
          },
          "onsetDateTime": "2023-09-23"
        }
      },
      {
        "resource": {
          "resourceType": "AllergyIntolerance",
          "id": "alg-M000005-1",
          "patient": {
            "reference": "Patient/M000005"
          },
          "code": {
            "text": "Clopidogrel"
          },
          "reaction": [
            {
              "description": "Bruising",
              "severity": "moderate"
            }
          ]
        }
      },
      {
        "resource": {
          "resourceType": "Procedure",
          "id": "proc-M000005-1",
          "subject": {
            "reference": "Patient/M000005"
          },
          "code": {
            "text": "percutaneous coronary intervention"
          },
          "performedDateTime": "2024-09-22"
        }
      },
      {
        "resource": {
          "resourceType": "MedicationRequest",
          "id": "medreq-M000005-1",
          "status": "active",
          "intent": "order",
          "medicationCodeableConcept": {
            "text": "Aspirin"
          },
          "subject": {
            "reference": "Patient/M000005"
          },
          "authoredOn": "2025-08-23",
          "dosageInstruction": [
            {
              "text": "81 mg PO daily. Enteric-coated"
            }
          ],
          "note": [
            {
              "text": "Mock data for pipeline test"
            }
          ]
        }
      },
      {
        "resource": {
          "resourceType": "MedicationRequest",
          "id": "medreq-M000005-2",
          "status": "active",
          "intent": "order",
          "medicationCodeableConcept": {
            "text": "Atenolol"
          },
          "subject": {
            "reference": "Patient/M000005"
          },
          "authoredOn": "2025-08-23",
          "dosageInstruction": [
            {
              "text": "50 mg PO daily. "
            }
          ],
          "note": [
            {
              "text": "Mock data for pipeline test"
            }
          ]
        }
      },
      {
        "resource": {
          "resourceType": "MedicationRequest",
          "id": "medreq-M000005-3",
          "status": "active",
          "intent": "order",
          "medicationCodeableConcept": {
            "text": "Atorvastatin"
          },
          "subject": {
            "reference": "Patient/M000005"
          },
          "authoredOn": "2025-08-23",
          "dosageInstruction": [
            {
              "text": "40 mg PO HS. "
            }
          ],
          "note": [
            {
              "text": "Mock data for pipeline test"
            }
          ]
        }
      }
    ]
  },
  {
    "resourceType": "Bundle",
    "type": "collection",
    "entry": [
      {
        "resource": {
          "resourceType": "Patient",
          "id": "M000006",
          "identifier": [
            {
              "system": "urn:mrn",
              "value": "M000006"
            }
          ],
          "name": [
            {
              "family": "Garcia",
              "given": [
                "Grace"
              ]
            }
          ],
          "gender": "female",
          "birthDate": "1997-06-15"
        }
      },
      {
        "resource": {
          "resourceType": "Observation",
          "id": "obs-M000006-bp",
          "status": "final",
          "category": [
            {
              "coding": [
                {
                  "system": "http://terminology.hl7.org/CodeSystem/observation-category",
                  "code": "vital-signs"
                }
              ]
            }
          ],
          "code": {
            "text": "Blood pressure"
          },
          "subject": {
            "reference": "Patient/M000006"
          },
          "effectiveDateTime": "2025-09-22",
          "component": [
            {
              "code": {
                "text": "Systolic"
              },
              "valueQuantity": {
                "value": 112,
                "unit": "mmHg"
              }
            },
            {
              "code": {
                "text": "Diastolic"
              },
              "valueQuantity": {
                "value": 72,
                "unit": "mmHg"
              }
            }
          ]
        }
      },
      {
        "resource": {
          "resourceType": "Observation",
          "id": "obs-M000006-lipid",
          "status": "final",
          "code": {
            "text": "Lipid panel"
          },
          "subject": {
            "reference": "Patient/M000006"
          },
          "effectiveDateTime": "2025-09-22",
          "component": [
            {
              "code": {
                "text": "Total Cholesterol"
              },
              "valueQuantity": {
                "value": 150,
                "unit": "mg/dL"
              }
            },
            {
              "code": {
                "text": "HDL"
              },
              "valueQuantity": {
                "value": 65,
                "unit": "mg/dL"
              }
            },
            {
              "code": {
                "text": "LDL"
              },
              "valueQuantity": {
                "value": 70,
                "unit": "mg/dL"
              }
            }
          ]
        }
      },
      {
        "resource": {
          "resourceType": "Observation",
          "id": "obs-M000006-bmi",
          "status": "final",
          "code": {
            "text": "Body mass index"
          },
          "subject": {
            "reference": "Patient/M000006"
          },
          "effectiveDateTime": "2025-09-22",
          "valueQuantity": {
            "value": 21.8,
            "unit": "kg/m2"
          }
        }
      }
    ]
  },
  {
    "resourceType": "Bundle",
    "type": "collection",
    "entry": [
      {
        "resource": {
          "resourceType": "Patient",
          "id": "M000007",
          "identifier": [
            {
              "system": "urn:mrn",
              "value": "M000007"
            }
          ],
          "name": [
            {
              "family": "Patel",
              "given": [
                "Hiro"
              ]
            }
          ],
          "gender": "male",
          "birthDate": "1975-06-15"
        }
      },
      {
        "resource": {
          "resourceType": "Observation",
          "id": "obs-M000007-bp",
          "status": "final",
          "category": [
            {
              "coding": [
                {
                  "system": "http://terminology.hl7.org/CodeSystem/observation-category",
                  "code": "vital-signs"
                }
              ]
            }
          ],
          "code": {
            "text": "Blood pressure"
          },
          "subject": {
            "reference": "Patient/M000007"
          },
          "effectiveDateTime": "2025-09-22",
          "component": [
            {
              "code": {
                "text": "Systolic"
              },
              "valueQuantity": {
                "value": 128,
                "unit": "mmHg"
              }
            },
            {
              "code": {
                "text": "Diastolic"
              },
              "valueQuantity": {
                "value": 85,
                "unit": "mmHg"
              }
            }
          ]
        }
      },
      {
        "resource": {
          "resourceType": "Observation",
          "id": "obs-M000007-lipid",
          "status": "final",
          "code": {
            "text": "Lipid panel"
          },
          "subject": {
            "reference": "Patient/M000007"
          },
          "effectiveDateTime": "2025-09-22",
          "component": [
            {
              "code": {
                "text": "Total Cholesterol"
              },
              "valueQuantity": {
                "value": 180,
                "unit": "mg/dL"
              }
            },
            {
              "code": {
                "text": "HDL"
              },
              "valueQuantity": {
                "value": 40,
                "unit": "mg/dL"
              }
            },
            {
              "code": {
                "text": "LDL"
              },
              "valueQuantity": {
                "value": 110,
                "unit": "mg/dL"
              }
            }
          ]
        }
      },
      {
        "resource": {
          "resourceType": "Observation",
          "id": "obs-M000007-bmi",
          "status": "final",
          "code": {
            "text": "Body mass index"
          },
          "subject": {
            "reference": "Patient/M000007"
          },
          "effectiveDateTime": "2025-09-22",
          "valueQuantity": {
            "value": 29.8,
            "unit": "kg/m2"
          }
        }
      },
      {
        "resource": {
          "resourceType": "Condition",
          "id": "cond-M000007-1",
          "subject": {
            "reference": "Patient/M000007"
          },
          "code": {
            "text": "Hypertension"
          },
          "onsetDateTime": "2023-09-23"
        }
      },
      {
        "resource": {
          "resourceType": "Condition",
          "id": "cond-M000007-2",
          "subject": {
            "reference": "Patient/M000007"
          },
          "code": {
            "text": "Overweight"
          },
          "onsetDateTime": "2023-09-23"
        }
      },
      {
        "resource": {
          "resourceType": "Condition",
          "id": "cond-M000007-3",
          "subject": {
            "reference": "Patient/M000007"
          },
          "code": {
            "text": "Type 2 Diabetes Mellitus"
          },
          "onsetDateTime": "2023-09-23"
        }
      },
      {
        "resource": {
          "resourceType": "MedicationRequest",
          "id": "medreq-M000007-1",
          "status": "active",
          "intent": "order",
          "medicationCodeableConcept": {
            "text": "Metformin"
          },
          "subject": {
            "reference": "Patient/M000007"
          },
          "authoredOn": "2025-08-23",
          "dosageInstruction": [
            {
              "text": "500 mg PO BID with meals. "
            }
          ],
          "note": [
            {
              "text": "Mock data for pipeline test"
            }
          ]
        }
      },
      {
        "resource": {
          "resourceType": "MedicationRequest",
          "id": "medreq-M000007-2",
          "status": "active",
          "intent": "order",
          "medicationCodeableConcept": {
            "text": "Lisinopril"
          },
          "subject": {
            "reference": "Patient/M000007"
          },
          "authoredOn": "2025-08-23",
          "dosageInstruction": [
            {
              "text": "10 mg PO daily. "
            }
          ],
          "note": [
            {
              "text": "Mock data for pipeline test"
            }
          ]
        }
      }
    ]
  },
  {
    "resourceType": "Bundle",
    "type": "collection",
    "entry": [
      {
        "resource": {
          "resourceType": "Patient",
          "id": "M000008",
          "identifier": [
            {
              "system": "urn:mrn",
              "value": "M000008"
            }
          ],
          "name": [
            {
              "family": "Johnson",
              "given": [
                "Irene"
              ]
            }
          ],
          "gender": "female",
          "birthDate": "1961-06-15"
        }
      },
      {
        "resource": {
          "resourceType": "Observation",
          "id": "obs-M000008-bp",
          "status": "final",
          "category": [
            {
              "coding": [
                {
                  "system": "http://terminology.hl7.org/CodeSystem/observation-category",
                  "code": "vital-signs"
                }
              ]
            }
          ],
          "code": {
            "text": "Blood pressure"
          },
          "subject": {
            "reference": "Patient/M000008"
          },
          "effectiveDateTime": "2025-09-22",
          "component": [
            {
              "code": {
                "text": "Systolic"
              },
              "valueQuantity": {
                "value": 140,
                "unit": "mmHg"
              }
            },
            {
              "code": {
                "text": "Diastolic"
              },
              "valueQuantity": {
                "value": 90,
                "unit": "mmHg"
              }
            }
          ]
        }
      },
      {
        "resource": {
          "resourceType": "Observation",
          "id": "obs-M000008-lipid",
          "status": "final",
          "code": {
            "text": "Lipid panel"
          },
          "subject": {
            "reference": "Patient/M000008"
          },
          "effectiveDateTime": "2025-09-22",
          "component": [
            {
              "code": {
                "text": "Total Cholesterol"
              },
              "valueQuantity": {
                "value": 260,
                "unit": "mg/dL"
              }
            },
            {
              "code": {
                "text": "HDL"
              },
              "valueQuantity": {
                "value": 50,
                "unit": "mg/dL"
              }
            },
            {
              "code": {
                "text": "LDL"
              },
              "valueQuantity": {
                "value": 180,
                "unit": "mg/dL"
              }
            }
          ]
        }
      },
      {
        "resource": {
          "resourceType": "Observation",
          "id": "obs-M000008-bmi",
          "status": "final",
          "code": {
            "text": "Body mass index"
          },
          "subject": {
            "reference": "Patient/M000008"
          },
          "effectiveDateTime": "2025-09-22",
          "valueQuantity": {
            "value": 25.4,
            "unit": "kg/m2"
          }
        }
      },
      {
        "resource": {
          "resourceType": "Condition",
          "id": "cond-M000008-1",
          "subject": {
            "reference": "Patient/M000008"
          },
          "code": {
            "text": "Hypertension"
          },
          "onsetDateTime": "2023-09-23"
        }
      },
      {
        "resource": {
          "resourceType": "Condition",
          "id": "cond-M000008-2",
          "subject": {
            "reference": "Patient/M000008"
          },
          "code": {
            "text": "Overweight"
          },
          "onsetDateTime": "2023-09-23"
        }
      },
      {
        "resource": {
          "resourceType": "Condition",
          "id": "cond-M000008-3",
          "subject": {
            "reference": "Patient/M000008"
          },
          "code": {
            "text": "Hyperlipidemia"
          },
          "onsetDateTime": "2023-09-23"
        }
      },
      {
        "resource": {
          "resourceType": "Condition",
          "id": "cond-M000008-4",
          "subject": {
            "reference": "Patient/M000008"
          },
          "code": {
            "text": "Coronary Artery Disease"
          },
          "onsetDateTime": "2023-09-23"
        }
      },
      {
        "resource": {
          "resourceType": "Procedure",
          "id": "proc-M000008-1",
          "subject": {
            "reference": "Patient/M000008"
          },
          "code": {
            "text": "coronary angioplasty"
          },
          "performedDateTime": "2024-09-22"
        }
      },
      {
        "resource": {
          "resourceType": "MedicationRequest",
          "id": "medreq-M000008-1",
          "status": "active",
          "intent": "order",
          "medicationCodeableConcept": {
            "text": "Rosuvastatin"
          },
          "subject": {
            "reference": "Patient/M000008"
          },
          "authoredOn": "2025-08-23",
          "dosageInstruction": [
            {
              "text": "10 mg PO HS. "
            }
          ],
          "note": [
            {
              "text": "Mock data for pipeline test"
            }
          ]
        }
      },
      {
        "resource": {
          "resourceType": "MedicationRequest",
          "id": "medreq-M000008-2",
          "status": "active",
          "intent": "order",
          "medicationCodeableConcept": {
            "text": "Amlodipine"
          },
          "subject": {
            "reference": "Patient/M000008"
          },
          "authoredOn": "2025-08-23",
          "dosageInstruction": [
            {
              "text": "5 mg PO daily. "
            }
          ],
          "note": [
            {
              "text": "Mock data for pipeline test"
            }
          ]
        }
      }
    ]
  },
  {
    "resourceType": "Bundle",
    "type": "collection",
    "entry": [
      {
        "resource": {
          "resourceType": "Patient",
          "id": "M000009",
          "identifier": [
            {
              "system": "urn:mrn",
              "value": "M000009"
            }
          ],
          "name": [
            {
              "family": "Brown",
              "given": [
                "Jamal"
              ]
            }
          ],
          "gender": "male",
          "birthDate": "1983-06-15"
        }
      },
      {
        "resource": {
          "resourceType": "Observation",
          "id": "obs-M000009-bp",
          "status": "final",
          "category": [
            {
              "coding": [
                {
                  "system": "http://terminology.hl7.org/CodeSystem/observation-category",
                  "code": "vital-signs"
                }
              ]
            }
          ],
          "code": {
            "text": "Blood pressure"
          },
          "subject": {
            "reference": "Patient/M000009"
          },
          "effectiveDateTime": "2025-09-22",
          "component": [
            {
              "code": {
                "text": "Systolic"
              },
              "valueQuantity": {
                "value": 125,
                "unit": "mmHg"
              }
            },
            {
              "code": {
                "text": "Diastolic"
              },
              "valueQuantity": {
                "value": 80,
                "unit": "mmHg"
              }
            }
          ]
        }
      },
      {
        "resource": {
          "resourceType": "Observation",
          "id": "obs-M000009-lipid",
          "status": "final",
          "code": {
            "text": "Lipid panel"
          },
          "subject": {
            "reference": "Patient/M000009"
          },
          "effectiveDateTime": "2025-09-22",
          "component": [
            {
              "code": {
                "text": "Total Cholesterol"
              },
              "valueQuantity": {
                "value": 210,
                "unit": "mg/dL"
              }
            },
            {
              "code": {
                "text": "HDL"
              },
              "valueQuantity": {
                "value": 55,
                "unit": "mg/dL"
              }
            },
            {
              "code": {
                "text": "LDL"
              },
              "valueQuantity": {
                "value": 140,
                "unit": "mg/dL"
              }
            }
          ]
        }
      },
      {
        "resource": {
          "resourceType": "Observation",
          "id": "obs-M000009-bmi",
          "status": "final",
          "code": {
            "text": "Body mass index"
          },
          "subject": {
            "reference": "Patient/M000009"
          },
          "effectiveDateTime": "2025-09-22",
          "valueQuantity": {
            "value": 26.1,
            "unit": "kg/m2"
          }
        }
      },
      {
        "resource": {
          "resourceType": "Condition",
          "id": "cond-M000009-1",
          "subject": {
            "reference": "Patient/M000009"
          },
          "code": {
            "text": "Hypertension"
          },
          "onsetDateTime": "2023-09-23"
        }
      },
      {
        "resource": {
          "resourceType": "Condition",
          "id": "cond-M000009-2",
          "subject": {
            "reference": "Patient/M000009"
          },
          "code": {
            "text": "Overweight"
          },
          "onsetDateTime": "2023-09-23"
        }
      }
    ]
  },
  {
    "resourceType": "Bundle",
    "type": "collection",
    "entry": [
      {
        "resource": {
          "resourceType": "Patient",
          "id": "M000010",
          "identifier": [
            {
              "system": "urn:mrn",
              "value": "M000010"
            }
          ],
          "name": [
            {
              "family": "Stone",
              "given": [
                "Alice"
              ]
            }
          ],
          "gender": "female",
          "birthDate": "1966-06-15"
        }
      },
      {
        "resource": {
          "resourceType": "Observation",
          "id": "obs-M000010-bp",
          "status": "final",
          "category": [
            {
              "coding": [
                {
                  "system": "http://terminology.hl7.org/CodeSystem/observation-category",
                  "code": "vital-signs"
                }
              ]
            }
          ],
          "code": {
            "text": "Blood pressure"
          },
          "subject": {
            "reference": "Patient/M000010"
          },
          "effectiveDateTime": "2025-09-22",
          "component": [
            {
              "code": {
                "text": "Systolic"
              },
              "valueQuantity": {
                "value": 135,
                "unit": "mmHg"
              }
            },
            {
              "code": {
                "text": "Diastolic"
              },
              "valueQuantity": {
                "value": 85,
                "unit": "mmHg"
              }
            }
          ]
        }
      },
      {
        "resource": {
          "resourceType": "Observation",
          "id": "obs-M000010-lipid",
          "status": "final",
          "code": {
            "text": "Lipid panel"
          },
          "subject": {
            "reference": "Patient/M000010"
          },
          "effectiveDateTime": "2025-09-22",
          "component": [
            {
              "code": {
                "text": "Total Cholesterol"
              },
              "valueQuantity": {
                "value": 200,
                "unit": "mg/dL"
              }
            },
            {
              "code": {
                "text": "HDL"
              },
              "valueQuantity": {
                "value": 60,
                "unit": "mg/dL"
              }
            },
            {
              "code": {
                "text": "LDL"
              },
              "valueQuantity": {
                "value": 120,
                "unit": "mg/dL"
              }
            }
          ]
        }
      },
      {
        "resource": {
          "resourceType": "Observation",
          "id": "obs-M000010-bmi",
          "status": "final",
          "code": {
            "text": "Body mass index"
          },
          "subject": {
            "reference": "Patient/M000010"
          },
          "effectiveDateTime": "2025-09-22",
          "valueQuantity": {
            "value": 24.0,
            "unit": "kg/m2"
          }
        }
      },
      {
        "resource": {
          "resourceType": "Condition",
          "id": "cond-M000010-1",
          "subject": {
            "reference": "Patient/M000010"
          },
          "code": {
            "text": "Hypertension"
          },
          "onsetDateTime": "2023-09-23"
        }
      },
      {
        "resource": {
          "resourceType": "Condition",
          "id": "cond-M000010-2",
          "subject": {
            "reference": "Patient/M000010"
          },
          "code": {
            "text": "Type 2 Diabetes Mellitus"
          },
          "onsetDateTime": "2023-09-23"
        }
      },
      {
        "resource": {
          "resourceType": "MedicationRequest",
          "id": "medreq-M000010-1",
          "status": "active",
          "intent": "order",
          "medicationCodeableConcept": {
            "text": "Glimepiride"
          },
          "subject": {
            "reference": "Patient/M000010"
          },
          "authoredOn": "2025-08-23",
          "dosageInstruction": [
            {
              "text": "2 mg PO daily before breakfast. "
            }
          ],
          "note": [
            {
              "text": "Mock data for pipeline test"
            }
          ]
        }
      },
      {
        "resource": {
          "resourceType": "MedicationRequest",
          "id": "medreq-M000010-2",
          "status": "active",
          "intent": "order",
          "medicationCodeableConcept": {
            "text": "Lisinopril"
          },
          "subject": {
            "reference": "Patient/M000010"
          },
          "authoredOn": "2025-08-23",
          "dosageInstruction": [
            {
              "text": "10 mg PO daily. "
            }
          ],
          "note": [
            {
              "text": "Mock data for pipeline test"
            }
          ]
        }
      }
    ]
  }
]